{"trials":[{"workerId":"subjCode","trialNum":1,"choices":["choice3","choice4","choice2","choice1"],"multiple_choices_allowed":true,"expTimer":6.711,"chosen":["choice1"],"rt":5266},{"workerId":"subjCode","trialNum":2,"choices":["choice1","choice2","choice3","choice4"],"multiple_choices_allowed":false,"expTimer":9.349,"chosen":"choice4","rt":2632},{"workerId":"subjCode","trialNum":1,"choices":["choice3","choice2","choice4","choice1"],"multiple_choices_allowed":true,"expTimer":24.79,"chosen":["choice4"],"rt":23368},{"workerId":"subjCode","trialNum":1,"word_to_rate":"a_string","choices":["choice1","choice4","choice3","choice2"],"multiple_choices_allowed":true,"expTimer":4.771,"chosen":["choice1","choice4"],"rt":3811},{"workerId":"subjCode","trialNum":1,"word_to_rate":"a_string","choices":["choice4","choice1","choice2","choice3"],"multiple_choices_allowed":true,"expTimer":24.631,"chosen":["choice3"],"rt":23107},{"workerId":"subjCode","trialNum":1,"word_to_rate":"a_string","choices":["choice4","choice1","choice3","choice2"],"multiple_choices_allowed":true,"expTimer":3.584,"chosen":["choice4"],"rt":1913},{"workerId":"subjCode","trialNum":1,"word_to_rate":"a_string","choices":["choice3","choice2","choice1","choice4"],"multiple_choices_allowed":true,"expTimer":4.301,"chosen":["choice2"],"rt":2967},{"workerId":"subjCode","trialNum":2,"word_to_rate":"a_string","choices":["choice3","choice2","choice4","choice1"],"multiple_choices_allowed":false,"expTimer":5.652,"chosen":"choice4","rt":1345},{"workerId":"subjCode","trialNum":1,"word_to_rate":"a_string","choices":["choice1","choice2","choice4","choice3"],"multiple_choices_allowed":true,"expTimer":3.668,"chosen":["choice1"],"rt":2539},{"workerId":"subjCode","trialNum":2,"word_to_rate":"a_string","choices":["choice1","choice2","choice4","choice3"],"multiple_choices_allowed":false,"expTimer":6.636,"chosen":"choice2","rt":2963},{"workerId":"subjCode","trialNum":1,"word_to_rate":"a_string","choices":["choice3","choice1","choice2","choice4"],"multiple_choices_allowed":true,"expTimer":2.395,"chosen":["choice2"],"rt":1542},{"workerId":"subjCode","trialNum":1,"word_to_rate":"a_string","choices":["choice1","choice2","choice3","choice4"],"multiple_choices_allowed":false,"expTimer":3.778,"chosen":"choice3","rt":1377},{"workerId":"subjCode","trialNum":1,"word_to_rate":"a_string","choices":["choice1","choice2","choice3","choice4"],"multiple_choices_allowed":false,"expTimer":5.45,"chosen":"choice1","rt":1668},{"workerId":"subjCode","trialNum":1,"word_to_rate":"a_string","choices":["choice4","choice3","choice1","choice2"],"multiple_choices_allowed":true,"expTimer":2.553,"chosen":["choice3"],"rt":1610},{"workerId":"subjCode","trialNum":1,"word_to_rate":"a_string","choices":["choice2","choice1","choice3","choice4"],"multiple_choices_allowed":false,"expTimer":4.681,"chosen":"choice3","rt":2123},{"workerId":"subjCode","trialNum":1,"word_to_rate":"a_string","choices":["choice3","choice1","choice4","choice2"],"multiple_choices_allowed":false,"expTimer":6.17,"chosen":"choice1","rt":1484},{"workerId":"subjCode","trialNum":1,"word_to_rate":"a_string","choices":["choice4","choice3","choice2","choice1"],"multiple_choices_allowed":true,"min_choice":3,"max_choice":4,"expTimer":8.355,"chosen":["choice2","choice3","choice4"],"rt":6238},{"workerId":"subjCode","trialNum":1,"word_to_rate":"a_string","choices":["choice5","choice2","choice3","choice4","choice1"],"multiple_choices_allowed":true,"min_choice":3,"max_choice":4,"expTimer":8.148,"chosen":["choice1","choice2","choice5","choice3"],"rt":7334},{"workerId":"subjCode","trialNum":1,"word_to_rate":"a_string","choices":["choice1","choice4","choice2","choice3"],"multiple_choices_allowed":false,"min_choice":3,"max_choice":4,"expTimer":28.66,"chosen":"","rt":20505},{"workerId":"subjCode","trialNum":1,"word_to_rate":"a_string","choices":["choice1","choice4","choice3","choice2"],"multiple_choices_allowed":false,"min_choice":3,"max_choice":4,"expTimer":55.907,"chosen":"","rt":27242},{"workerId":"subjCode","trialNum":1,"word_to_rate":"a_string","choices":["choice5","choice3","choice2","choice4","choice1"],"multiple_choices_allowed":true,"min_choice":3,"max_choice":4,"expTimer":5.696,"chosen":["choice3","choice1","choice5"],"rt":4883},{"workerId":"subjCode","trialNum":1,"word_to_rate":"a_string","choices":["choice2","choice4","choice3","choice5","choice1"],"multiple_choices_allowed":true,"min_choice":3,"max_choice":4,"expTimer":28.376,"chosen":["choice2","choice4","choice3"],"rt":27270},{"workerId":"subjCode","trialNum":1,"word_to_rate":"a_string","choices":["choice1","choice2","choice3","choice4"],"multiple_choices_allowed":false,"min_choice":3,"max_choice":4,"expTimer":29.936,"chosen":"choice4","rt":1554},{"workerId":"subjCode","trialNum":1,"word_to_rate":"a_string","choices":["choice3","choice2","choice1","choice4"],"multiple_choices_allowed":false,"min_choice":3,"max_choice":4,"expTimer":31.568,"chosen":"choice3","rt":1629},{"workerId":"subjCode","trialNum":1,"word_to_rate":"a_string","choices":["choice1","choice5","choice3","choice4","choice2"],"multiple_choices_allowed":true,"min_choice":3,"max_choice":4,"expTimer":3.681,"chosen":["choice5","choice2","choice3"],"rt":2981},{"workerId":"subjCode","trialNum":1,"word_to_rate":"a_string","choices":["choice1","choice2","choice4","choice3"],"multiple_choices_allowed":false,"min_choice":3,"max_choice":4,"expTimer":4.401,"chosen":"","rt":714},{"workerId":"subjCode","trialNum":1,"word_to_rate":"a_string","choices":["choice1","choice3","choice2","choice4"],"multiple_choices_allowed":false,"min_choice":3,"max_choice":4,"expTimer":5.648,"chosen":"choice1","rt":1243},{"workerId":"subjCode","trialNum":1,"word_to_rate":"a_string","choices":["choice1","choice4","choice3","choice2"],"multiple_choices_allowed":false,"min_choice":3,"max_choice":4,"expTimer":4.879,"chosen":"choice3","rt":3954},{"workerId":"subjCode","trialNum":1,"word_to_rate":"a_string","choices":["choice1","choice3","choice4","choice2"],"multiple_choices_allowed":false,"min_choice":3,"max_choice":4,"expTimer":1.933,"chosen":"choice3","rt":1254},{"workerId":"subjCode","trialNum":1,"word_to_rate":"a_string","choices":["choice1","choice4","choice2","choice3"],"multiple_choices_allowed":false,"min_choice":3,"max_choice":4,"expTimer":4.181,"chosen":"choice1","rt":2879},{"workerId":"subjCode","trialNum":1,"word_to_rate":"a_string","choices":["choice4","choice1","choice3","choice2"],"multiple_choices_allowed":false,"min_choice":3,"max_choice":4,"expTimer":3.658,"chosen":"choice4","rt":2557},{"workerId":"subjCode","trialNum":1,"word_to_rate":"a_string","choices":["choice3","choice1","choice4","choice2"],"multiple_choices_allowed":false,"min_choice":3,"max_choice":4,"expTimer":2.002,"chosen":"choice1","rt":1243},{"workerId":"subjCode","trialNum":1,"word_to_rate":"a_string","choices":["choice2","choice4","choice3","choice1"],"multiple_choices_allowed":false,"min_choice":3,"max_choice":4,"expTimer":3.416,"chosen":"choice1","rt":1193},{"workerId":"subjCode","trialNum":1,"word_to_rate":"a_string","choices":["choice4","choice3","choice2","choice1"],"multiple_choices_allowed":false,"min_choice":3,"max_choice":4,"expTimer":3.065,"chosen":"choice3","rt":1315},{"workerId":"subjCode","trialNum":1,"word_to_rate":"a_string","choices":["choice3","choice1","choice4","choice2"],"multiple_choices_allowed":false,"min_choice":3,"max_choice":4,"expTimer":3.043,"chosen":"choice2","rt":1534},{"workerId":"subjCode","trialNum":1,"word_to_rate":"a_string","choices":["choice1","choice2","choice4","choice3"],"multiple_choices_allowed":false,"min_choice":3,"max_choice":4,"expTimer":2.159,"chosen":"choice3","rt":1327},{"workerId":"subjCode","trialNum":1,"word_to_rate":"a_string","choices":["choice1","choice4","choice2","choice3"],"multiple_choices_allowed":false,"min_choice":3,"max_choice":4,"expTimer":4.087,"chosen":"choice2","rt":2171},{"workerId":"subjCode","trialNum":1,"word_to_rate":"a_string","choices":["choice3","choice2","choice4","choice1"],"multiple_choices_allowed":false,"min_choice":3,"max_choice":4,"expTimer":2.207,"chosen":"choice2","rt":1369},{"workerId":"subjCode","trialNum":1,"word_to_rate":"a_string","choices":["choice3","choice2","choice4","choice1"],"multiple_choices_allowed":false,"min_choice":3,"max_choice":4,"expTimer":2.172,"chosen":"choice1","rt":1424},{"workerId":"subjCode","trialNum":1,"word_to_rate":"a_string","choices":["choice4","choice3","choice2","choice1"],"multiple_choices_allowed":false,"min_choice":3,"max_choice":4,"expTimer":2.219,"chosen":"choice4","rt":1318},{"workerId":"subjCode","trialNum":1,"word_to_rate":"a_string","choices":["choice3","choice4","choice1","choice2"],"multiple_choices_allowed":false,"min_choice":3,"max_choice":4,"expTimer":2.556,"chosen":"choice2","rt":1484},{"workerId":"subjCode","trialNum":1,"word_to_rate":"a_string","choices":["choice3","choice4","choice2","choice1"],"multiple_choices_allowed":false,"min_choice":3,"max_choice":4,"expTimer":7.051,"chosen":"choice4","rt":1558},{"workerId":"subjCode","trialNum":1,"word_to_rate":"a_string","choices":["choice4","choice2","choice1","choice3"],"multiple_choices_allowed":false,"min_choice":3,"max_choice":4,"expTimer":2.244,"chosen":"choice1","rt":1574},{"workerId":"subjCode","trialNum":1,"word_to_rate":"a_string","choices":["choice4","choice3","choice2","choice1"],"multiple_choices_allowed":false,"min_choice":3,"max_choice":4,"expTimer":2.05,"chosen":"choice1","rt":1334},{"workerId":"subjCode","trialNum":1,"word_to_rate":"a_string","choices":["choice3","choice1","choice4","choice2"],"multiple_choices_allowed":false,"min_choice":3,"max_choice":4,"expTimer":3.385,"chosen":"choice2","rt":2810},{"workerId":"subjCode","trialNum":1,"word_to_rate":"a_string","choices":["choice3","choice1","choice4","choice2"],"multiple_choices_allowed":false,"min_choice":3,"max_choice":4,"expTimer":2.369,"chosen":"choice4","rt":1725},{"workerId":"subjCode","trialNum":1,"word_to_rate":"a_string","choices":["choice2","choice3","choice1","choice4"],"multiple_choices_allowed":false,"min_choice":3,"max_choice":4,"expTimer":2.31,"chosen":"choice4","rt":1742},{"workerId":"subjCode","trialNum":1,"word_to_rate":"a_string","choices":["choice2","choice3","choice1","choice4"],"multiple_choices_allowed":false,"min_choice":3,"max_choice":4,"expTimer":1.969,"chosen":"choice3","rt":1347},{"workerId":"subjCode","trialNum":1,"word_to_rate":"a_string","choices":["choice4","choice1","choice2","choice3"],"multiple_choices_allowed":false,"min_choice":3,"max_choice":4,"expTimer":1.863,"chosen":"choice4","rt":1319},{"workerId":"subjCode","trialNum":1,"word_to_rate":"a_string","choices":["choice1","choice3","choice4","choice2"],"multiple_choices_allowed":false,"min_choice":3,"max_choice":4,"expTimer":2.564,"chosen":"choice3","rt":1932},{"workerId":"subjCode","trialNum":1,"word_to_rate":"a_string","choices":["choice2","choice3","choice4","choice1"],"multiple_choices_allowed":false,"min_choice":3,"max_choice":4,"expTimer":2.763,"chosen":"choice3","rt":1714},{"workerId":"subjCode","trialNum":1,"word_to_rate":"a_string","choices":["choice1","choice3","choice2","choice4"],"multiple_choices_allowed":false,"min_choice":3,"max_choice":4,"expTimer":1.707,"chosen":"choice3","rt":1107},{"workerId":"subjCode","trialNum":1,"word_to_rate":"a_string","choices":["choice2","choice4","choice1","choice3"],"multiple_choices_allowed":false,"min_choice":3,"max_choice":4,"expTimer":3.952,"chosen":"choice1","rt":3377},{"workerId":"subjCode","trialNum":1,"word_to_rate":"a_string","choices":["choice4","choice1","choice2","choice3"],"multiple_choices_allowed":false,"min_choice":3,"max_choice":4,"expTimer":2.641,"chosen":"choice4","rt":1887},{"workerId":"subjCode","trialNum":1,"word_to_rate":"a_string","choices":["choice2","choice4","choice3","choice1"],"multiple_choices_allowed":false,"min_choice":3,"max_choice":4,"expTimer":2.781,"chosen":"choice2","rt":1472},{"workerId":"subjCode","trialNum":1,"word_to_rate":"a_string","choices":["choice1","choice3","choice4","choice2"],"multiple_choices_allowed":false,"min_choice":3,"max_choice":4,"expTimer":2.831,"chosen":"choice2","rt":2015},{"workerId":"subjCode","trialNum":1,"word_to_rate":"a_string","choices":["choice3","choice2","choice1","choice4"],"multiple_choices_allowed":false,"min_choice":3,"max_choice":4,"expTimer":2.267,"chosen":"choice4","rt":1727},{"workerId":"subjCode","trialNum":1,"word_to_rate":"a_string","choices":["choice4","choice1","choice3","choice2"],"multiple_choices_allowed":false,"min_choice":3,"max_choice":4,"expTimer":2.289,"chosen":"choice1","rt":1690},{"workerId":"subjCode","trialNum":1,"word_to_rate":"a_string","choices":["choice2","choice4","choice1","choice3"],"multiple_choices_allowed":false,"min_choice":3,"max_choice":4,"expTimer":2.526,"chosen":"choice4","rt":1882},{"workerId":"subjCode","trialNum":1,"word_to_rate":"a_string","choices":["choice2","choice3","choice4","choice1"],"multiple_choices_allowed":false,"min_choice":3,"max_choice":4,"expTimer":2.36,"chosen":"choice4","rt":1624},{"workerId":"subjCode","trialNum":1,"word_to_rate":"a_string","choices":["choice4","choice3","choice2","choice1"],"multiple_choices_allowed":false,"min_choice":3,"max_choice":4,"expTimer":3.115,"chosen":"choice1","rt":2430},{"workerId":"subjCode","trialNum":1,"word_to_rate":"a_string","choices":["choice1","choice3","choice2","choice4"],"multiple_choices_allowed":false,"min_choice":3,"max_choice":4,"expTimer":2.253,"chosen":"choice4","rt":1616},{"workerId":"subjCode","trialNum":1,"word_to_rate":"a_string","choices":["choice3","choice1","choice4","choice2"],"multiple_choices_allowed":false,"min_choice":3,"max_choice":4,"expTimer":2.04,"chosen":"choice3","rt":1479},{"workerId":"subjCode","trialNum":1,"word_to_rate":"a_string","choices":["choice3","choice4","choice1","choice2"],"multiple_choices_allowed":false,"min_choice":3,"max_choice":4,"expTimer":1.802,"chosen":"choice3","rt":1192},{"workerId":"subjCode","trialNum":1,"word_to_rate":"a_string","choices":["choice4","choice1","choice3","choice2"],"multiple_choices_allowed":false,"min_choice":3,"max_choice":4,"expTimer":2.267,"chosen":"choice1","rt":1549},{"workerId":"subjCode","trialNum":1,"word_to_rate":"a_string","choices":["choice3","choice2","choice4","choice1"],"multiple_choices_allowed":false,"min_choice":3,"max_choice":4,"expTimer":2.419,"chosen":"choice1","rt":1906},{"workerId":"subjCode","trialNum":1,"word_to_rate":"a_string","choices":["choice2","choice4","choice1","choice3"],"multiple_choices_allowed":false,"min_choice":3,"max_choice":4,"expTimer":2.291,"chosen":"choice4","rt":1398},{"workerId":"subjCode","trialNum":1,"word_to_rate":"a_string","choices":["choice4","choice1","choice3","choice2"],"multiple_choices_allowed":false,"min_choice":3,"max_choice":4,"expTimer":2.313,"chosen":"choice2","rt":1689},{"workerId":"subjCode","trialNum":1,"word_to_rate":"a_string","choices":["choice2","choice1","choice3","choice4"],"multiple_choices_allowed":false,"min_choice":3,"max_choice":4,"expTimer":1.596,"chosen":"choice3","rt":1186},{"workerId":"subjCode","trialNum":1,"word_to_rate":"a_string","choices":["choice2","choice4","choice1","choice3"],"multiple_choices_allowed":false,"min_choice":3,"max_choice":4,"expTimer":2.565,"chosen":"choice1","rt":1834},{"workerId":"subjCode","trialNum":1,"word_to_rate":"a_string","choices":["choice3","choice1","choice2","choice4"],"multiple_choices_allowed":false,"min_choice":3,"max_choice":4,"expTimer":2.117,"chosen":"choice2","rt":1342},{"workerId":"subjCode","trialNum":1,"word_to_rate":"a_string","choices":["choice2","choice3","choice4","choice1"],"multiple_choices_allowed":false,"min_choice":3,"max_choice":4,"expTimer":2.572,"chosen":"choice3","rt":1772},{"workerId":"subjCode","trialNum":1,"word_to_rate":"a_string","choices":["choice4","choice1","choice3","choice2"],"multiple_choices_allowed":false,"min_choice":3,"max_choice":4,"expTimer":2.548,"chosen":"choice2","rt":1797},{"workerId":"subjCode","trialNum":1,"word_to_rate":"a_string","choices":["choice4","choice2","choice3","choice1"],"multiple_choices_allowed":false,"min_choice":3,"max_choice":4,"expTimer":1.956,"chosen":"choice4","rt":1289},{"workerId":"subjCode","trialNum":1,"word_to_rate":"a_string","choices":["choice3","choice4","choice2","choice1"],"multiple_choices_allowed":false,"min_choice":3,"max_choice":4,"expTimer":1.787,"chosen":"choice1","rt":1225},{"workerId":"subjCode","trialNum":1,"word_to_rate":"a_string","choices":["choice4","choice2","choice3","choice1"],"multiple_choices_allowed":false,"min_choice":3,"max_choice":4,"expTimer":1.757,"chosen":"choice4","rt":1244},{"workerId":"subjCode","trialNum":1,"word_to_rate":"a_string","choices":["choice1","choice3","choice4","choice2"],"multiple_choices_allowed":false,"min_choice":3,"max_choice":4,"expTimer":2.24,"chosen":"choice2","rt":1599},{"workerId":"subjCode","trialNum":1,"word_to_rate":"a_string","choices":["choice4","choice3","choice1","choice2"],"multiple_choices_allowed":false,"min_choice":3,"max_choice":4,"expTimer":1.747,"chosen":"choice4","rt":1141},{"workerId":"subjCode","trialNum":1,"word_to_rate":"a_string","choices":["choice3","choice2","choice4","choice1"],"multiple_choices_allowed":false,"min_choice":3,"max_choice":4,"expTimer":2.436,"chosen":"choice2","rt":1285},{"workerId":"subjCode","trialNum":1,"word_to_rate":"a_string","choices":["choice4","choice2","choice3","choice1"],"multiple_choices_allowed":false,"min_choice":3,"max_choice":4,"expTimer":1.653,"chosen":"choice4","rt":1132},{"workerId":"subjCode","trialNum":1,"word_to_rate":"a_string","choices":["choice4","choice1","choice3","choice2"],"multiple_choices_allowed":false,"min_choice":3,"max_choice":4,"expTimer":2.578,"chosen":"choice4","rt":1445},{"workerId":"subjCode","trialNum":1,"word_to_rate":"a_string","choices":["choice4","choice2","choice1","choice3"],"multiple_choices_allowed":false,"min_choice":3,"max_choice":4,"expTimer":3.398,"chosen":"choice2","rt":1875},{"workerId":"subjCode","trialNum":1,"word_to_rate":"a_string","choices":["choice3","choice2","choice1","choice4"],"multiple_choices_allowed":false,"min_choice":3,"max_choice":4,"expTimer":1.751,"chosen":"choice2","rt":1091},{"workerId":"subjCode","trialNum":1,"word_to_rate":"a_string","choices":["choice2","choice4","choice3","choice1"],"multiple_choices_allowed":false,"min_choice":3,"max_choice":4,"expTimer":2.889,"chosen":"choice2","rt":1994},{"workerId":"subjCode","trialNum":1,"word_to_rate":"a_string","choices":["choice2","choice3","choice1","choice4"],"multiple_choices_allowed":false,"min_choice":3,"max_choice":4,"expTimer":2.34,"chosen":"choice3","rt":1500},{"workerId":"subjCode","trialNum":1,"word_to_rate":"a_string","choices":["choice2","choice3","choice4","choice1"],"multiple_choices_allowed":false,"min_choice":3,"max_choice":4,"expTimer":2.459,"chosen":"choice1","rt":1326},{"workerId":"subjCode","trialNum":1,"word_to_rate":"a_string","choices":["choice3","choice4","choice1","choice2"],"multiple_choices_allowed":false,"min_choice":3,"max_choice":4,"expTimer":2.503,"chosen":"choice4","rt":1553},{"workerId":"subjCode","trialNum":1,"word_to_rate":"a_string","choices":["choice4","choice1","choice2","choice3"],"multiple_choices_allowed":false,"min_choice":3,"max_choice":4,"expTimer":4.375,"chosen":"choice1","rt":3614},{"workerId":"subjCode","trialNum":1,"word_to_rate":"a_string","choices":["choice2","choice3","choice4","choice1"],"multiple_choices_allowed":false,"min_choice":3,"max_choice":4,"expTimer":2.908,"chosen":"choice1","rt":1844},{"workerId":"subjCode","trialNum":1,"word_to_rate":"a_string","choices":["choice3","choice4","choice1","choice2"],"multiple_choices_allowed":false,"min_choice":3,"max_choice":4,"expTimer":2.509,"chosen":"choice4","rt":1758},{"workerId":"subjCode","trialNum":1,"word_to_rate":"a_string","choices":["choice1","choice2","choice3","choice4"],"multiple_choices_allowed":false,"min_choice":3,"max_choice":4,"expTimer":1.898,"chosen":"choice2","rt":1253},{"workerId":"subjCode","trialNum":1,"word_to_rate":"a_string","choices":["choice2","choice4","choice1","choice3"],"multiple_choices_allowed":false,"min_choice":3,"max_choice":4,"expTimer":2.664,"chosen":"choice2","rt":1978},{"workerId":"subjCode","trialNum":1,"word_to_rate":"a_string","choices":["choice4","choice1","choice3","choice2"],"multiple_choices_allowed":false,"min_choice":3,"max_choice":4,"expTimer":2.872,"chosen":"choice2","rt":1582},{"workerId":"subjCode","trialNum":1,"word_to_rate":"a_string","choices":["choice1","choice3","choice2","choice4"],"multiple_choices_allowed":false,"min_choice":3,"max_choice":4,"expTimer":2.802,"chosen":"choice2","rt":2195},{"workerId":"subjCode","trialNum":1,"word_to_rate":"a_string","choices":["choice4","choice2","choice3","choice1"],"multiple_choices_allowed":false,"min_choice":3,"max_choice":4,"expTimer":2.37,"chosen":"choice1","rt":1827},{"workerId":"subjCode","trialNum":1,"word_to_rate":"a_string","choices":["choice1","choice2","choice3","choice4"],"multiple_choices_allowed":false,"min_choice":3,"max_choice":4,"expTimer":2.961,"chosen":"choice2","rt":2125},{"workerId":"subjCode","trialNum":1,"word_to_rate":"a_string","choices":["choice3","choice4","choice2","choice1"],"multiple_choices_allowed":false,"min_choice":3,"max_choice":4,"expTimer":2.906,"chosen":"choice3","rt":2206},{"workerId":"subjCode","trialNum":1,"word_to_rate":"a_string","choices":["choice2","choice1","choice3","choice4"],"multiple_choices_allowed":false,"min_choice":3,"max_choice":4,"expTimer":1.882,"chosen":"choice2","rt":1223},{"workerId":"subjCode","trialNum":1,"word_to_rate":"a_string","choices":["choice3","choice2","choice4","choice1"],"multiple_choices_allowed":false,"min_choice":3,"max_choice":4,"expTimer":2.49,"chosen":"choice1","rt":1827},{"workerId":"subjCode","trialNum":1,"word_to_rate":"a_string","choices":["choice3","choice4","choice1","choice2"],"multiple_choices_allowed":false,"min_choice":3,"max_choice":4,"expTimer":1.962,"chosen":"choice3","rt":1351},{"workerId":"subjCode","trialNum":1,"word_to_rate":"a_string","choices":["choice4","choice1","choice3","choice2"],"multiple_choices_allowed":false,"min_choice":3,"max_choice":4,"expTimer":2.998,"chosen":"choice2","rt":1937},{"workerId":"subjCode","trialNum":1,"word_to_rate":"a_string","choices":["choice4","choice1","choice2","choice3"],"multiple_choices_allowed":false,"min_choice":3,"max_choice":4,"expTimer":2.082,"chosen":"choice3","rt":1389},{"workerId":"subjCode","trialNum":1,"word_to_rate":"a_string","choices":["choice3","choice1","choice2","choice4"],"multiple_choices_allowed":false,"min_choice":3,"max_choice":4,"expTimer":3.4,"chosen":"choice4","rt":2679},{"workerId":"subjCode","trialNum":1,"word_to_rate":"a_string","choices":["choice2","choice4","choice3","choice1"],"multiple_choices_allowed":false,"min_choice":3,"max_choice":4,"expTimer":2.214,"chosen":"choice1","rt":1622},{"workerId":"subjCode","trialNum":1,"word_to_rate":"a_string","choices":["choice2","choice3","choice4","choice1"],"multiple_choices_allowed":false,"min_choice":3,"max_choice":4,"expTimer":3.407,"chosen":"choice2","rt":2325},{"workerId":"subjCode","trialNum":1,"word_to_rate":"a_string","choices":["choice4","choice1","choice3","choice2"],"multiple_choices_allowed":false,"min_choice":3,"max_choice":4,"expTimer":2.64,"chosen":"choice2","rt":1604},{"workerId":"subjCode","trialNum":1,"word_to_rate":"a_string","choices":["choice1","choice3","choice2","choice4"],"multiple_choices_allowed":false,"min_choice":3,"max_choice":4,"expTimer":1.971,"chosen":"choice2","rt":1376},{"workerId":"subjCode","trialNum":1,"word_to_rate":"a_string","choices":["choice3","choice4","choice1","choice2"],"multiple_choices_allowed":false,"min_choice":3,"max_choice":4,"expTimer":4.187,"chosen":"choice3","rt":1391},{"workerId":"subjCode","trialNum":1,"word_to_rate":"a_string","choices":["choice1","choice2","choice3","choice4"],"multiple_choices_allowed":false,"min_choice":3,"max_choice":4,"expTimer":2.849,"chosen":"choice4","rt":1584},{"workerId":"subjCode","trialNum":1,"word_to_rate":"a_string","choices":["choice3","choice2","choice4","choice1"],"multiple_choices_allowed":false,"min_choice":3,"max_choice":4,"expTimer":2.053,"chosen":"choice2","rt":1491},{"workerId":"subjCode","trialNum":1,"word_to_rate":"a_string","choices":["choice3","choice4","choice2","choice1"],"multiple_choices_allowed":false,"min_choice":3,"max_choice":4,"expTimer":1.948,"chosen":"choice4","rt":1395},{"workerId":"subjCode","trialNum":1,"word_to_rate":"a_string","choices":["choice4","choice2","choice1","choice3"],"multiple_choices_allowed":false,"min_choice":3,"max_choice":4,"expTimer":10.832,"chosen":"choice3","rt":4599},{"workerId":"subjCode","trialNum":1,"word_to_rate":"a_string","choices":["choice2","choice3","choice1","choice4"],"multiple_choices_allowed":false,"min_choice":3,"max_choice":4,"expTimer":4.1,"chosen":"choice3","rt":2478},{"workerId":"subjCode","trialNum":1,"word_to_rate":"a_string","choices":["choice4","choice3","choice1","choice2"],"multiple_choices_allowed":false,"min_choice":3,"max_choice":4,"expTimer":3.809,"chosen":"choice4","rt":3224},{"workerId":"subjCode","trialNum":1,"word_to_rate":"a_string","choices":["choice1","choice3","choice4","choice2"],"multiple_choices_allowed":false,"min_choice":3,"max_choice":4,"expTimer":2.192,"chosen":"choice2","rt":1470},{"workerId":"subjCode","trialNum":1,"word_to_rate":"a_string","choices":["choice4","choice1","choice2","choice3"],"multiple_choices_allowed":false,"min_choice":3,"max_choice":4,"expTimer":14.163,"chosen":"choice3","rt":7782},{"workerId":"subjCode","trialNum":1,"word_to_rate":"a_string","choices":["choice4","choice1","choice2","choice3"],"multiple_choices_allowed":false,"min_choice":3,"max_choice":4,"expTimer":3.392,"chosen":"choice3","rt":2724},{"workerId":"subjCode","trialNum":1,"word_to_rate":"a_string","choices":["choice1","choice4","choice2","choice3"],"multiple_choices_allowed":false,"min_choice":3,"max_choice":4,"expTimer":2.912,"chosen":"choice1","rt":2170},{"workerId":"subjCode","trialNum":1,"word_to_rate":"a_string","choices":["choice1","choice4","choice3","choice2"],"multiple_choices_allowed":false,"min_choice":3,"max_choice":4,"expTimer":1.827,"chosen":"choice1","rt":1218},{"workerId":"subjCode","trialNum":1,"word_to_rate":"a_string","choices":["choice1","choice2","choice4","choice3"],"multiple_choices_allowed":false,"min_choice":3,"max_choice":4,"expTimer":1.571,"chosen":"choice4","rt":947},{"workerId":"subjCode","trialNum":1,"word_to_rate":"a_string","choices":["choice1","choice3","choice4","choice2"],"multiple_choices_allowed":false,"min_choice":3,"max_choice":4,"expTimer":1.796,"chosen":"choice4","rt":1263},{"workerId":"subjCode","trialNum":1,"word_to_rate":"a_string","choices":["choice1","choice3","choice4","choice2"],"multiple_choices_allowed":false,"min_choice":3,"max_choice":4,"expTimer":1.876,"chosen":"choice2","rt":1249},{"workerId":"subjCode","trialNum":1,"word_to_rate":"a_string","choices":["choice4","choice3","choice1","choice2"],"multiple_choices_allowed":false,"min_choice":3,"max_choice":4,"expTimer":1.613,"chosen":"choice2","rt":1059},{"workerId":"subjCode","trialNum":1,"word_to_rate":"a_string","choices":["choice4","choice2","choice3","choice1"],"multiple_choices_allowed":false,"min_choice":3,"max_choice":4,"expTimer":2.247,"chosen":"choice3","rt":1642},{"workerId":"subjCode","trialNum":1,"word_to_rate":"a_string","choices":["choice1","choice3","choice2","choice4"],"multiple_choices_allowed":false,"min_choice":3,"max_choice":4,"expTimer":2.264,"chosen":"choice3","rt":1374}]}
